t (s)	R (ohm)
0.000	19431922.000
0.500	19423948.000
1.000	19396800.000
1.500	19384794.000
2.000	19412834.000
2.500	19420990.000
3.000	19437200.000
3.500	19453106.000
4.000	19424028.000
4.500	19422708.000
5.000	19415276.000
5.500	19410672.000
6.000	19418440.000
6.500	19407782.000
7.000	19372990.000
7.500	19397726.000
8.000	19403632.000
8.500	19407250.000
9.000	19441226.000
9.500	19435694.000
10.000	19407840.000
10.500	19399368.000
11.000	19446718.000
11.500	19436816.000
12.000	19427788.000
12.500	19417984.000
13.000	19450154.000
13.500	19419026.000
14.000	19463226.000
14.500	19508562.000
15.000	19483946.000
15.500	19483410.000
16.000	19477446.000
16.500	19482078.000
17.000	19475866.000
17.500	19463622.000
18.000	19460574.000
18.500	19457672.000
19.000	19415604.000
19.500	19478240.000
20.000	19471836.000
20.500	19510094.000
21.000	19495140.000
21.500	19494742.000
22.000	19495334.000
22.500	19497408.000
23.000	19511874.000
23.500	19492678.000
24.000	19501056.000
24.500	19499924.000
25.000	19499726.000
25.500	19470758.000
26.000	19489368.000
26.500	19482022.000
27.000	19471744.000
27.500	19482672.000
28.000	19457672.000
28.500	19455416.000
29.000	19472078.000
29.500	19485272.000
30.000	19469912.000
30.500	19498590.000
31.000	19499186.000
31.500	19516322.000
32.000	19516670.000
32.500	19416782.000
33.000	19468386.000
33.500	19506294.000
34.000	19514194.000
34.500	19467654.000
35.000	19487200.000
35.500	19502436.000
36.000	19515874.000
36.500	19524778.000
37.000	19508026.000
37.500	19503572.000
38.000	19514990.000
38.500	19499186.000
39.000	19525226.000
39.500	19515980.000
40.000	19541224.000
40.500	19525178.000
41.000	19562454.000
41.500	19531760.000
42.000	19533344.000
42.500	19538890.000
43.000	19519038.000
43.500	19515036.000
44.000	19525418.000
44.500	19549796.000
45.000	19540722.000
45.500	19520974.000
46.000	19554012.000
46.500	19549742.000
47.000	19537946.000
47.500	19565982.000
48.000	19620780.000
48.500	19563648.000
49.000	19553570.000
49.500	19537160.000
50.000	19535180.000
50.500	19595598.000
51.000	19522658.000
51.500	19539632.000
52.000	19561314.000
52.500	19580902.000
53.000	19590406.000
53.500	19548010.000
54.000	19567918.000
54.500	19576826.000
55.000	19629342.000
55.500	19621348.000
56.000	19608708.000
56.500	19636952.000
57.000	19615498.000
57.500	19620588.000
58.000	19614348.000
58.500	19632682.000
59.000	19594340.000
59.500	19639534.000
60.000	19623926.000
60.500	19666910.000
61.000	19608700.000
61.500	19639330.000
62.000	19635232.000
62.500	19608228.000
63.000	19627824.000
63.500	19643236.000
64.000	19605052.000
64.500	19600564.000
65.000	19622932.000
65.500	19642444.000
66.000	19617124.000
66.500	19629730.000
67.000	19661026.000
67.500	19653370.000
68.000	19663384.000
68.500	19651054.000
69.000	19678220.000
69.500	19692544.000
70.000	19684332.000
70.500	19673972.000
71.000	19659438.000
71.500	19664944.000
72.000	19640726.000
72.500	19654630.000
73.000	19645188.000
73.500	19648142.000
74.000	19692784.000
74.500	19695510.000
75.000	19661240.000
75.500	19660068.000
76.000	19645188.000
76.500	19674136.000
77.000	19668594.000
77.500	19650654.000
78.000	19629774.000
78.500	19597980.000
79.000	19659636.000
79.500	19660630.000
80.000	19698838.000
80.500	19679418.000
81.000	19709228.000
81.500	19698872.000
82.000	19664740.000
82.500	19678054.000
83.000	19651648.000
83.500	19682174.000
84.000	19616528.000
84.500	19752416.000
85.000	19641684.000
85.500	19576272.000
86.000	19666866.000
86.500	19676464.000
87.000	19658640.000
87.500	19681014.000
88.000	19680016.000
88.500	19668860.000
89.000	19679416.000
89.500	19684104.000
90.000	19671946.000
90.500	19686434.000
91.000	19689190.000
91.500	19693516.000
92.000	19659596.000
92.500	19710800.000
93.000	19715936.000
93.500	19661788.000
94.000	19714132.000
94.500	19689990.000
95.000	19763096.000
95.500	19740742.000
96.000	19718500.000
96.500	19752414.000
97.000	19806052.000
97.500	19735826.000
98.000	19741142.000
98.500	19742144.000
99.000	19742716.000
99.500	19735228.000
100.000	19709656.000
100.500	19733852.000
101.000	19707096.000
101.500	19699870.000
102.000	19694548.000
102.500	19729772.000
103.000	19743342.000
103.500	19713224.000
104.000	19734286.000
104.500	19756160.000
105.000	19823158.000
105.500	19702966.000
106.000	19799742.000
106.500	19791604.000
107.000	19801704.000
107.500	19716960.000
108.000	19739200.000
108.500	19751238.000
109.000	19725606.000
109.500	19727372.000
110.000	51676456.000
110.500	50118488.000
111.000	49315236.000
111.500	49426792.000
112.000	54530860.000
112.500	44961000.000
113.000	44403808.000
113.500	43632196.000
114.000	43110308.000
114.500	43015556.000
115.000	42669644.000
115.500	40701408.000
116.000	42534428.000
116.500	42115628.000
117.000	41891948.000
117.500	41689464.000
118.000	41528344.000
118.500	41314604.000
119.000	41066004.000
119.500	40990552.000
120.000	65462540.000
120.500	64097312.000
121.000	63563660.000
121.500	63404992.000
122.000	63301496.000
122.500	63219144.000
123.000	62142732.000
123.500	62516424.000
124.000	62047072.000
124.500	62440536.000
125.000	62262172.000
125.500	61905300.000
126.000	61874684.000
126.500	61696976.000
127.000	61602068.000
127.500	61103564.000
128.000	60855120.000
128.500	60373376.000
129.000	60467020.000
129.500	60651444.000
130.000	60393048.000
130.500	60238404.000
131.000	60207756.000
131.500	60393720.000
132.000	59882268.000
132.500	59865940.000
133.000	59579500.000
133.500	59559136.000
134.000	59417012.000
134.500	59472516.000
135.000	59632252.000
135.500	59467044.000
136.000	59326596.000
136.500	59257872.000
137.000	59183848.000
137.500	58951820.000
138.000	58965816.000
138.500	58971792.000
139.000	58951228.000
139.500	58623016.000
140.000	58585264.000
140.500	58603884.000
141.000	58456124.000
141.500	58575024.000
142.000	58796876.000
142.500	58519440.000
143.000	58481836.000
143.500	58317452.000
144.000	58418568.000
144.500	58294356.000
145.000	58308032.000
145.500	58238640.000
146.000	57912496.000
146.500	58032736.000
147.000	57996324.000
147.500	58148248.000
148.000	58180124.000
148.500	58276568.000
149.000	58115184.000
149.500	58376320.000
150.000	58308024.000
150.500	58393592.000
151.000	58186016.000
151.500	58444840.000
152.000	58326400.000
152.500	58291420.000
153.000	58116960.000
153.500	58393620.000
154.000	58422812.000
154.500	58321716.000
155.000	58306868.000
155.500	58501488.000
156.000	58394200.000
156.500	58363832.000
157.000	58241088.000
157.500	58465692.000
158.000	58491880.000
158.500	58239248.000
159.000	58378712.000
159.500	58124648.000
160.000	58397124.000
160.500	58778788.000
161.000	58601468.000
161.500	58689108.000
162.000	58480624.000
162.500	58654276.000
163.000	58749976.000
163.500	58819384.000
164.000	58858604.000
164.500	58702376.000
165.000	58583552.000
165.500	58705352.000
166.000	58549940.000
166.500	58972388.000
167.000	58439476.000
167.500	58478824.000
168.000	58721016.000
168.500	58669300.000
169.000	58852672.000
169.500	58818776.000
170.000	58599100.000
170.500	58774040.000
171.000	58608768.000
171.500	58687348.000
172.000	58343612.000
172.500	58393552.000
173.000	57996908.000
173.500	58635060.000
174.000	58630256.000
174.500	58433556.000
175.000	58405532.000
175.500	58400772.000
176.000	58264168.000
176.500	58469360.000
177.000	58109312.000
177.500	58625540.000
178.000	58841044.000
178.500	58839880.000
179.000	58473504.000
179.500	58472256.000
180.000	58321084.000
180.500	58500880.000
181.000	58603796.000
181.500	58585820.000
182.000	58588872.000
182.500	58842880.000
183.000	58655396.000
183.500	58933624.000
184.000	58806616.000
184.500	58686736.000
185.000	59196728.000
185.500	59041728.000
186.000	59094684.000
186.500	59052792.000
187.000	59179612.000
187.500	59284948.000
188.000	59363440.000
188.500	59341396.000
189.000	59234640.000
189.500	59215672.000
190.000	59053300.000
190.500	59139368.000
191.000	59055164.000
191.500	59125252.000
192.000	58809628.000
192.500	59246976.000
193.000	59125864.000
193.500	58651876.000
194.000	58187176.000
194.500	58408440.000
195.000	58428092.000
195.500	58440664.000
196.000	58165912.000
196.500	58617636.000
197.000	58668708.000
197.500	58491400.000
198.000	58357328.000
198.500	58614656.000
199.000	58321060.000
199.500	58564288.000
200.000	58702364.000
200.500	58793876.000
201.000	58899036.000
201.500	58599652.000
202.000	58439484.000
202.500	58966424.000
203.000	59008780.000
203.500	59004040.000
204.000	58860376.000
204.500	58841036.000
205.000	58736676.000
205.500	58804812.000
206.000	58862744.000
206.500	58863940.000
207.000	58970568.000
207.500	58974164.000
208.000	59080560.000
208.500	59270152.000
209.000	59011816.000
209.500	59128796.000
210.000	58763636.000
210.500	58833632.000
211.000	58524712.000
211.500	58885680.000
212.000	58929416.000
212.500	58624172.000
213.000	58810796.000
213.500	58746208.000
214.000	58882084.000
214.500	58729340.000
215.000	58868108.000
215.500	58814388.000
216.000	59272552.000
216.500	58775192.000
217.000	58934200.000
217.500	59324152.000
218.000	59106956.000
218.500	59342560.000
219.000	59006400.000
219.500	58876700.000
220.000	58993576.000
220.500	58987576.000
221.000	58709508.000
221.500	59078132.000
222.000	59276176.000
222.500	58777032.000
223.000	58672256.000
223.500	58969380.000
224.000	58739072.000
224.500	58832492.000
225.000	58705352.000
225.500	59236396.000
226.000	58869960.000
226.500	55666752.000
227.000	59268960.000
227.500	59061168.000
228.000	58754148.000
228.500	58944596.000
229.000	58988800.000
229.500	58655436.000
230.000	58600220.000
230.500	22750642.000
231.000	23008096.000
231.500	23241218.000
232.000	23422436.000
232.500	23562822.000
233.000	23680238.000
233.500	24572372.000
234.000	24829088.000
234.500	25730114.000
235.000	35322064.000
235.500	34356312.000
236.000	23801972.000
236.500	23970896.000
237.000	24118418.000
237.500	24210296.000
238.000	24245960.000
238.500	24350058.000
239.000	24400936.000
239.500	24528860.000
240.000	18177578.000
240.500	18443804.000
241.000	18555220.000
241.500	18719210.000
242.000	18779192.000
242.500	18895270.000
243.000	18922328.000
243.500	18923568.000
244.000	19018942.000
244.500	19065116.000
245.000	19114618.000
245.500	19138988.000
246.000	19168034.000
246.500	19219238.000
247.000	19286894.000
247.500	19306526.000
248.000	19318836.000
248.500	19354594.000
249.000	19431126.000
249.500	19478278.000
250.000	19522546.000
250.500	19544330.000
251.000	19547408.000
251.500	19570248.000
252.000	19552018.000
252.500	19609248.000
253.000	19619626.000
253.500	19673732.000
254.000	19696302.000
254.500	19699064.000
255.000	19719888.000
255.500	19769788.000
256.000	19748052.000
256.500	19778886.000
257.000	19752632.000
257.500	19765438.000
258.000	19827512.000
258.500	19822952.000
259.000	19842058.000
259.500	19865786.000
260.000	19840872.000
260.500	19848254.000
261.000	19867208.000
261.500	19860610.000
262.000	19855830.000
262.500	19870596.000
263.000	19893818.000
263.500	19890210.000
264.000	19912264.000
264.500	19919902.000
265.000	19906646.000
265.500	19908658.000
266.000	19896622.000
266.500	19931950.000
267.000	19908848.000
267.500	19897620.000
268.000	19928526.000
268.500	19895414.000
269.000	19880612.000
269.500	19900228.000
270.000	19880008.000
270.500	19914478.000
271.000	19933558.000
271.500	19937584.000
272.000	19953292.000
272.500	19936980.000
273.000	19947040.000
273.500	19923112.000
274.000	19930546.000
274.500	19937582.000
275.000	19934566.000
275.500	19939188.000
276.000	19943012.000
276.500	19950460.000
277.000	19916290.000
277.500	19868614.000
278.000	19901830.000
278.500	19915676.000
279.000	19894206.000
279.500	19849644.000
280.000	19914880.000
280.500	19911064.000
281.000	19949454.000
281.500	19912850.000
282.000	19954478.000
282.500	19982944.000
283.000	19961550.000
283.500	19944824.000
284.000	19986792.000
284.500	19977298.000
285.000	19965990.000
285.500	19950876.000
286.000	19950262.000
286.500	19970226.000
287.000	19971434.000
287.500	19948856.000
288.000	19951466.000
288.500	19934958.000
289.000	19947650.000
289.500	19951872.000
290.000	19980728.000
290.500	19953472.000
291.000	19960332.000
291.500	19992454.000
292.000	20006626.000
292.500	19964378.000
293.000	19950254.000
293.500	19947436.000
294.000	19986588.000
294.500	19969014.000
295.000	19959932.000
295.500	19962350.000
296.000	19977498.000
296.500	19969618.000
297.000	19994074.000
297.500	19956906.000
298.000	19977494.000
298.500	19986388.000
299.000	20006624.000
299.500	19995288.000
300.000	19979518.000
300.500	19979924.000
301.000	19984370.000
301.500	19977094.000
302.000	19969820.000
302.500	19939392.000
303.000	19954690.000
303.500	19955296.000
304.000	19971634.000
304.500	19947642.000
305.000	19975676.000
305.500	19959328.000
306.000	19981332.000
306.500	19942812.000
307.000	19925718.000
307.500	19971846.000
308.000	19980928.000
308.500	19964574.000
309.000	19970014.000
309.500	19963564.000
310.000	19963970.000
310.500	19971638.000
311.000	19960146.000
311.500	19939388.000
312.000	19910046.000
312.500	19956908.000
313.000	19971640.000
313.500	19979918.000
314.000	19986184.000
314.500	20009464.000
315.000	19986788.000
315.500	19995894.000
316.000	19999738.000
316.500	19977492.000
317.000	19968208.000
317.500	19970034.000
318.000	19984970.000
318.500	19960950.000
319.000	19981744.000
319.500	20016550.000
320.000	19985376.000
320.500	19956914.000
321.000	19983154.000
321.500	19959934.000
322.000	20007026.000
322.500	20026294.000
323.000	20010476.000
323.500	19966386.000
324.000	20048044.000
324.500	19999538.000
325.000	20031576.000
325.500	20010680.000
326.000	20014124.000
326.500	20023250.000
327.000	20030764.000
327.500	19995488.000
328.000	20008446.000
328.500	20026096.000
329.000	20006622.000
329.500	19976288.000
330.000	19969820.000
330.500	19978498.000
331.000	19991436.000
331.500	20009870.000
332.000	19988204.000
332.500	19988004.000
333.000	19996298.000
333.500	19985980.000
334.000	20010268.000
334.500	20000954.000
335.000	20006216.000
335.500	19985780.000
336.000	20061878.000
336.500	19996702.000
337.000	19965184.000
337.500	20003992.000
338.000	20015342.000
338.500	20030356.000
339.000	20013516.000
339.500	20026292.000
340.000	20004402.000
340.500	19984772.000
341.000	19979312.000
341.500	19969810.000
342.000	19966796.000
342.500	20004394.000
343.000	19892806.000
343.500	19940792.000
344.000	19974668.000
344.500	19960146.000
345.000	19976892.000
345.500	19975080.000
346.000	20011078.000
346.500	19985988.000
347.000	19968416.000
347.500	19974264.000
348.000	19953482.000
348.500	19977284.000
349.000	19988204.000
349.500	19989616.000
350.000	19988814.000
350.500	52903260.000
351.000	51118436.000
351.500	48670236.000
352.000	46495776.000
352.500	48826140.000
353.000	48230100.000
353.500	47012488.000
354.000	46102788.000
354.500	45663036.000
355.000	45069680.000
355.500	48732272.000
356.000	45135084.000
356.500	44847768.000
357.000	44560384.000
357.500	44099632.000
358.000	43852232.000
358.500	43475444.000
359.000	43332800.000
359.500	43210464.000
360.000	43006156.000
360.500	64602900.000
361.000	64058228.000
361.500	63995992.000
362.000	63179928.000
362.500	63563556.000
363.000	62415652.000
363.500	62993444.000
364.000	62712860.000
364.500	62612880.000
365.000	62611548.000
365.500	62179872.000
366.000	62241160.000
366.500	61646024.000
367.000	61582736.000
367.500	61264940.000
368.000	61389472.000
368.500	61039640.000
369.000	60863016.000
369.500	60920516.000
370.000	60966780.000
370.500	60697256.000
371.000	60403300.000
371.500	60396576.000
372.000	59993088.000
372.500	60013792.000
373.000	60028332.000
373.500	60123980.000
374.000	60139868.000
374.500	59813296.000
375.000	59529184.000
375.500	59681956.000
376.000	59738540.000
376.500	59696992.000
377.000	58946972.000
377.500	59987052.000
378.000	59144108.000
378.500	59232180.000
379.000	59206040.000
379.500	59073364.000
380.000	59269512.000
380.500	59498592.000
381.000	58935344.000
381.500	59111680.000
382.000	59251112.000
382.500	59289092.000
383.000	59239364.000
383.500	59510052.000
384.000	59381800.000
384.500	59239360.000
385.000	59458720.000
385.500	59416352.000
386.000	59775916.000
386.500	59381220.000
387.000	59393024.000
387.500	59239960.000
388.000	59041612.000
388.500	59188584.000
389.000	59415140.000
389.500	59750528.000
390.000	59393648.000
390.500	59485480.000
391.000	59095208.000
391.500	59219808.000
392.000	59659048.000
392.500	59147096.000
393.000	59366964.000
393.500	59629772.000
394.000	59463336.000
394.500	59328976.000
395.000	59257160.000
395.500	59348556.000
396.000	58855944.000
396.500	58781096.000
397.000	58821484.000
397.500	58904392.000
398.000	59257752.000
398.500	59039820.000
399.000	58869252.000
399.500	58800400.000
400.000	59043416.000
400.500	58871064.000
401.000	59027588.000
401.500	59202088.000
402.000	58959480.000
402.500	58891608.000
403.000	59205684.000
403.500	59395452.000
404.000	59293308.000
404.500	59421796.000
405.000	59547128.000
405.500	59286720.000
406.000	59520164.000
406.500	59377004.000
407.000	59536896.000
407.500	59487296.000
408.000	59323528.000
408.500	59590152.000
409.000	59354376.000
409.500	59175356.000
410.000	59337136.000
410.500	58528348.000
411.000	59448496.000
411.500	59197888.000
412.000	59570332.000
412.500	59538060.000
413.000	59125828.000
413.500	59363792.000
414.000	59678340.000
414.500	59074576.000
415.000	59177140.000
415.500	59069720.000
416.000	59126392.000
416.500	58763016.000
417.000	59146484.000
417.500	58622328.000
418.000	58881440.000
418.500	59114104.000
419.000	59075140.000
419.500	59533852.000
420.000	59164216.000
420.500	59337748.000
421.000	59719900.000
421.500	59522576.000
422.000	59393024.000
422.500	59343136.000
423.000	59214416.000
423.500	59204136.000
424.000	59126392.000
424.500	59412716.000
425.000	59289096.000
425.500	59160660.000
426.000	59502792.000
426.500	59067936.000
427.000	59784916.000
427.500	59106308.000
428.000	59699992.000
428.500	59719296.000
429.000	59411520.000
429.500	59111716.000
430.000	59333164.000
430.500	59094032.000
431.000	59634596.000
431.500	59234564.000
432.000	59382432.000
432.500	59563280.000
433.000	59384832.000
433.500	59349152.000
434.000	59293320.000
434.500	59864112.000
435.000	59469984.000
435.500	59147684.000
436.000	59505204.000
436.500	59445464.000
437.000	59251780.000
437.500	59039828.000
438.000	59018012.000
438.500	58983380.000
439.000	58929988.000
439.500	59109260.000
440.000	59233420.000
440.500	59094612.000
441.000	59008128.000
441.500	59055064.000
442.000	59193084.000
442.500	59270712.000
443.000	59161808.000
443.500	58812560.000
444.000	59225548.000
444.500	59376428.000
445.000	59612976.000
445.500	59783704.000
446.000	59832068.000
446.500	59703028.000
447.000	59722272.000
447.500	59687440.000
448.000	59973124.000
448.500	59832024.000
449.000	59755376.000
449.500	59614760.000
450.000	59504592.000
450.500	59536880.000
451.000	60172860.000
451.500	59521372.000
452.000	59483080.000
452.500	59123428.000
453.000	59768024.000
453.500	59829596.000
454.000	59479444.000
454.500	59555416.000
455.000	59702448.000
455.500	59950000.000
456.000	59597424.000
456.500	59650764.000
457.000	59868324.000
457.500	59701792.000
458.000	59685600.000
458.500	59884648.000
459.000	59841000.000
459.500	59575212.000
460.000	59809664.000
460.500	59463372.000
461.000	59133032.000
461.500	59448476.000
462.000	60019820.000
462.500	59716876.000
463.000	60301432.000
463.500	60134316.000
464.000	60103856.000
464.500	60067304.000
465.000	60047848.000
465.500	59862856.000
466.000	59892504.000
466.500	59994960.000
467.000	59794588.000
467.500	59688608.000
468.000	59969444.000
468.500	59696456.000
469.000	59874900.000
469.500	59716252.000
470.000	59623672.000
470.500	23168702.000
471.000	23482918.000
471.500	24642368.000
472.000	23743046.000
472.500	23847908.000
473.000	24014110.000
473.500	24601482.000
474.000	24875058.000
474.500	25860662.000
475.000	24588412.000
475.500	24566012.000
476.000	24664064.000
476.500	24720616.000
477.000	24803234.000
477.500	24833572.000
478.000	24963328.000
478.500	25046868.000
479.000	25142232.000
479.500	25164394.000
480.000	18210144.000
480.500	18597506.000
481.000	18656398.000
481.500	18921560.000
482.000	18961786.000
482.500	18998058.000
483.000	19074124.000
483.500	19162234.000
484.000	19217168.000
484.500	19258964.000
485.000	19341720.000
485.500	19394752.000
486.000	19472512.000
486.500	19458166.000
487.000	19492072.000
487.500	19491480.000
488.000	19565618.000
488.500	19636374.000
489.000	19655316.000
489.500	19678406.000
490.000	19707086.000
490.500	19711226.000
491.000	19749226.000
491.500	19784026.000
492.000	19738184.000
492.500	19817782.000
493.000	19791976.000
493.500	19785836.000
494.000	19853030.000
494.500	19847244.000
495.000	19874220.000
495.500	19927930.000
496.000	19936780.000
496.500	19926330.000
497.000	19908070.000
497.500	19949464.000
498.000	19966800.000
498.500	19973058.000
499.000	20009058.000
499.500	19990634.000
500.000	19985588.000
500.500	19970832.000
501.000	19985984.000
501.500	20021428.000
502.000	20028336.000
502.500	19993464.000
503.000	19989422.000
503.500	20021428.000
504.000	20005616.000
504.500	20005822.000
505.000	20036858.000
505.500	20010268.000
506.000	20010474.000
506.500	20005612.000
507.000	20027112.000
507.500	19991446.000
508.000	20013926.000
508.500	20006430.000
509.000	20031374.000
509.500	20024882.000
510.000	20006020.000
510.500	20028126.000
511.000	20027926.000
511.500	20017168.000
512.000	20051306.000
512.500	20040932.000
513.000	20025284.000
513.500	20073510.000
514.000	20076168.000
514.500	20046222.000
515.000	20067798.000
515.500	20052732.000
516.000	20080242.000
516.500	20084530.000
517.000	20094338.000
517.500	20097610.000
518.000	20137158.000
518.500	20113152.000
519.000	20108234.000
519.500	20087996.000
520.000	20087184.000
520.500	20091682.000
521.000	20092294.000
521.500	20093522.000
522.000	20088410.000
522.500	20068814.000
523.000	20097614.000
523.500	20086572.000
524.000	20097402.000
524.500	20104774.000
525.000	20084738.000
525.500	20093104.000
526.000	20073714.000
526.500	20086774.000
527.000	20088410.000
527.500	20096992.000
528.000	20074730.000
528.500	20104344.000
529.000	20069634.000
529.500	20102096.000
530.000	20103942.000
530.500	20087794.000
531.000	20085750.000
531.500	20084332.000
532.000	20096168.000
532.500	20135480.000
533.000	20121544.000
533.500	20111920.000
534.000	20088002.000
534.500	20075544.000
535.000	20064128.000
535.500	20078596.000
536.000	20106594.000
536.500	20148026.000
537.000	20119090.000
537.500	20089224.000
538.000	20133030.000
538.500	20114998.000
539.000	20095352.000
539.500	20106594.000
540.000	20089832.000
540.500	20144116.000
541.000	20157268.000
541.500	20136522.000
542.000	20116220.000
542.500	20087382.000
543.000	20114160.000
543.500	20109872.000
544.000	20086766.000
544.500	20086156.000
545.000	20103938.000
545.500	20108242.000
546.000	20127284.000
546.500	20105976.000
547.000	20122966.000
547.500	20118878.000
548.000	20142256.000
548.500	20121140.000
549.000	20122980.000
549.500	20118472.000
550.000	20091060.000
550.500	20091672.000
551.000	20128300.000
551.500	20138558.000
552.000	20165082.000
552.500	20170036.000
553.000	20183410.000
553.500	20163626.000
554.000	20146140.000
554.500	20114358.000
555.000	20113742.000
555.500	20180102.000
556.000	20155600.000
556.500	20174744.000
557.000	20160752.000
557.500	20118664.000
558.000	20140812.000
558.500	20124824.000
559.000	20152320.000
559.500	20129538.000
560.000	20161988.000
560.500	20156040.000
561.000	20151512.000
561.500	20101478.000
562.000	20127890.000
562.500	20119708.000
563.000	20113756.000
563.500	20121132.000
564.000	20149044.000
564.500	20141864.000
565.000	20105174.000
565.500	20121132.000
566.000	20081056.000
566.500	20079418.000
567.000	20194148.000
567.500	20137118.000
568.000	20153562.000
568.500	20117034.000
569.000	20115798.000
569.500	20111294.000
570.000	20126674.000
570.500	20165092.000
571.000	20110088.000
571.500	20145766.000
572.000	20164254.000
572.500	20142054.000
573.000	20132616.000
573.500	20146784.000
574.000	20110698.000
574.500	20119296.000
575.000	20108866.000
575.500	20078200.000
576.000	20088614.000
576.500	20097404.000
577.000	20110902.000
577.500	20103538.000
578.000	20116838.000
578.500	20102720.000
579.000	20082078.000
579.500	20110906.000
580.000	20107842.000
580.500	20160974.000
581.000	20105170.000
581.500	20119908.000
582.000	20116018.000
582.500	20072278.000
583.000	20178708.000
583.500	20096184.000
584.000	20167792.000
584.500	20122798.000
585.000	20133048.000
585.500	20075756.000
586.000	20048250.000
586.500	20132020.000
587.000	20091880.000
587.500	20118688.000
588.000	20055372.000
588.500	20079424.000
589.000	20110704.000
589.500	20109882.000
590.000	20097606.000
590.500	20095770.000
591.000	20063310.000
591.500	20147828.000
592.000	20111322.000
592.500	20131824.000
593.000	20137556.000
593.500	20104560.000
594.000	20109886.000
594.500	20117470.000
595.000	20061076.000
595.500	20126696.000
596.000	20095576.000
596.500	20157288.000
597.000	20123408.000
597.500	20144744.000
598.000	20123398.000
598.500	20114390.000
599.000	20103326.000
599.500	20164680.000
