t (s)	R (ohm)
0.000	27192904.000
0.500	27230928.000
1.000	27386800.000
1.500	27512658.000
2.000	27761944.000
2.500	27719412.000
3.000	27816156.000
3.500	27992382.000
4.000	27982752.000
4.500	28105300.000
5.000	28161102.000
5.500	28209926.000
6.000	28159952.000
6.500	28291588.000
7.000	28352208.000
7.500	28324598.000
8.000	28420672.000
8.500	28441986.000
9.000	28504414.000
9.500	28495042.000
10.000	28456360.000
10.500	28511186.000
11.000	28510036.000
11.500	28599010.000
12.000	28653238.000
12.500	28677606.000
13.000	28677310.000
13.500	28732220.000
14.000	28756628.000
14.500	28868908.000
15.000	28691058.000
15.500	28708322.000
16.000	28742220.000
16.500	28749410.000
17.000	28814346.000
17.500	28939780.000
18.000	28944904.000
18.500	29057340.000
19.000	29173170.000
19.500	29079014.000
20.000	29055710.000
20.500	29109878.000
21.000	29139636.000
21.500	29155646.000
22.000	29181194.000
22.500	29091258.000
23.000	29191586.000
23.500	29222992.000
24.000	29282910.000
24.500	29197852.000
25.000	29308674.000
25.500	29275422.000
26.000	29351020.000
26.500	29335078.000
27.000	29315106.000
27.500	29239284.000
28.000	29239582.000
28.500	29364126.000
29.000	29318874.000
29.500	29323998.000
