t (s)	R (ohm)
0.000	20160428.000
0.500	51507720.000
1.000	50396452.000
1.500	50032576.000
2.000	49520076.000
2.500	49018488.000
3.000	48738468.000
3.500	48166300.000
4.000	47629836.000
4.500	47208328.000
5.000	46722516.000
5.500	46607064.000
6.000	46333868.000
6.500	45865828.000
7.000	45522628.000
7.500	45472568.000
8.000	45129844.000
8.500	44908368.000
9.000	44574112.000
9.500	44401568.000
10.000	44104764.000
10.500	44083272.000
11.000	43897676.000
11.500	43760684.000
12.000	43644708.000
12.500	43616240.000
13.000	43434136.000
13.500	43300896.000
14.000	43204012.000
14.500	43119596.000
15.000	42925080.000
15.500	42806824.000
16.000	42779900.000
16.500	42834208.000
17.000	42605968.000
17.500	42594628.000
18.000	42585436.000
18.500	42530468.000
19.000	42372416.000
19.500	42247728.000
20.000	42223644.000
20.500	42118236.000
21.000	42224080.000
21.500	42078956.000
22.000	42047868.000
22.500	42027396.000
23.000	41945000.000
23.500	41970020.000
24.000	41881492.000
24.500	41897572.000
25.000	41734984.000
25.500	41407236.000
26.000	41792512.000
26.500	41591908.000
27.000	41675816.000
27.500	41516972.000
28.000	41543576.000
28.500	41397720.000
29.000	41408512.000
29.500	41516112.000
