t (s)	R (ohm)
0.000	24649344.000
0.500	24876466.000
1.000	25095828.000
1.500	25108960.000
2.000	25248602.000
2.500	25395964.000
3.000	25522014.000
3.500	25655506.000
4.000	25742346.000
4.500	25813448.000
5.000	25900066.000
5.500	26038044.000
6.000	26108112.000
6.500	26153546.000
7.000	26241654.000
7.500	26325722.000
8.000	26386828.000
8.500	26452294.000
9.000	26549804.000
9.500	26611958.000
10.000	26674702.000
10.500	26714878.000
11.000	26807866.000
11.500	26822432.000
12.000	26877648.000
12.500	26944234.000
13.000	26966430.000
13.500	27010488.000
14.000	27078164.000
14.500	27121512.000
15.000	27181694.000
15.500	27233568.000
16.000	27276534.000
16.500	27251210.000
17.000	27306288.000
17.500	27359172.000
18.000	27374606.000
18.500	27443002.000
19.000	27428332.000
19.500	27519096.000
20.000	27524056.000
20.500	27586606.000
21.000	27598156.000
21.500	27627326.000
22.000	27613286.000
22.500	27691486.000
23.000	27731670.000
23.500	27714198.000
24.000	27681194.000
24.500	27766150.000
25.000	27810238.000
25.500	27827022.000
26.000	27806322.000
26.500	27840432.000
27.000	27833720.000
27.500	27875216.000
28.000	27902160.000
28.500	27924992.000
29.000	27841530.000
29.500	27923570.000
