t (s)	R (ohm)
0.000	51933688.000
0.500	51547044.000
1.000	51288160.000
1.500	50971572.000
2.000	50506712.000
2.500	50480396.000
3.000	50599820.000
3.500	50197580.000
4.000	49717508.000
4.500	49508696.000
5.000	49547400.000
5.500	49345368.000
6.000	49143716.000
6.500	49076684.000
7.000	49007104.000
7.500	48848072.000
8.000	48538444.000
8.500	48516568.000
9.000	48283404.000
9.500	48521104.000
10.000	48192596.000
10.500	48151464.000
11.000	47863688.000
11.500	47987248.000
12.000	48170576.000
12.500	47476924.000
13.000	47354596.000
13.500	47251224.000
14.000	47534952.000
14.500	47172244.000
15.000	47404848.000
15.500	47309720.000
16.000	47345664.000
16.500	47115992.000
17.000	47263472.000
17.500	46983912.000
18.000	46998408.000
18.500	47039856.000
19.000	46836264.000
19.500	46854004.000
20.000	46780280.000
20.500	46734156.000
21.000	46782676.000
21.500	46732236.000
22.000	46738400.000
22.500	46497336.000
23.000	46588356.000
23.500	46462676.000
24.000	46537852.000
24.500	46461712.000
25.000	46451704.000
25.500	46383912.000
26.000	46213164.000
26.500	46023572.000
27.000	46153520.000
27.500	46181200.000
28.000	46162444.000
28.500	46214548.000
29.000	46222556.000
29.500	46232428.000
