t (s)	R (ohm)
0.000	29055128.000
0.500	29074148.000
1.000	29018626.000
1.500	29062198.000
2.000	29067654.000
2.500	29138480.000
3.000	29068692.000
3.500	29135656.000
4.000	29118340.000
4.500	29206514.000
5.000	29239918.000
5.500	29125296.000
6.000	29176920.000
6.500	29213208.000
7.000	29250658.000
7.500	29250366.000
8.000	29225278.000
8.500	29267400.000
9.000	29195054.000
9.500	29243770.000
10.000	29199486.000
10.500	29139494.000
11.000	29151520.000
11.500	29165766.000
12.000	29193996.000
12.500	29151974.000
13.000	29159516.000
13.500	29102200.000
14.000	29195754.000
14.500	29147492.000
15.000	29118916.000
15.500	29174212.000
16.000	29143196.000
16.500	29166944.000
17.000	29189970.000
17.500	29205750.000
18.000	29158630.000
18.500	29145136.000
19.000	29146154.000
19.500	29119662.000
20.000	29204694.000
20.500	29160990.000
21.000	29205754.000
21.500	29099104.000
22.000	29117158.000
22.500	29062500.000
23.000	29083288.000
23.500	29048052.000
24.000	29068240.000
24.500	29126768.000
25.000	29042306.000
25.500	29057616.000
26.000	29101914.000
26.500	29054546.000
27.000	29005112.000
27.500	28999970.000
28.000	29040844.000
28.500	29078438.000
29.000	29142478.000
29.500	29024080.000
30.000	29100150.000
30.500	29087132.000
31.000	29364886.000
31.500	28996598.000
32.000	29126464.000
32.500	28944154.000
33.000	29011572.000
33.500	29147064.000
34.000	29217220.000
34.500	28418882.000
35.000	29099694.000
35.500	29076788.000
36.000	29084768.000
36.500	28939620.000
37.000	29123948.000
37.500	29139496.000
38.000	29139370.000
38.500	29086250.000
39.000	29112132.000
39.500	29044074.000
40.000	29049230.000
40.500	29177218.000
41.000	29180636.000
41.500	29160878.000
42.000	29201148.000
42.500	29208602.000
43.000	29250674.000
43.500	29130486.000
44.000	28979002.000
44.500	29045114.000
45.000	29166508.000
45.500	29087882.000
46.000	29218892.000
46.500	28796780.000
47.000	28975768.000
47.500	29011136.000
48.000	29061620.000
48.500	29081246.000
49.000	28979602.000
49.500	28988524.000
50.000	28988230.000
50.500	29064848.000
51.000	29165478.000
51.500	29145592.000
52.000	28937278.000
52.500	29061020.000
53.000	29061030.000
53.500	29044232.000
54.000	29103254.000
54.500	29042608.000
55.000	29044094.000
55.500	29062210.000
56.000	29023790.000
56.500	29011578.000
57.000	29055718.000
57.500	29023184.000
58.000	29025248.000
58.500	28969922.000
59.000	28974308.000
59.500	28999830.000
60.000	29045566.000
60.500	24777658.000
61.000	20887678.000
61.500	19723532.000
62.000	18688954.000
62.500	18057938.000
63.000	18054270.000
63.500	17919060.000
64.000	18500294.000
64.500	18559952.000
65.000	18616550.000
65.500	18648756.000
66.000	18688390.000
66.500	18732058.000
67.000	18800376.000
67.500	18850908.000
68.000	18895876.000
68.500	18920640.000
69.000	19562174.000
69.500	22549634.000
70.000	30812348.000
70.500	36933248.000
71.000	53109932.000
71.500	47338528.000
72.000	46165836.000
72.500	45548000.000
73.000	44772824.000
73.500	44327120.000
74.000	43752272.000
74.500	46118980.000
75.000	42038172.000
75.500	41835124.000
76.000	41831720.000
76.500	40937096.000
77.000	36085372.000
77.500	34380084.000
78.000	31209830.000
78.500	41134832.000
79.000	41048548.000
79.500	40626428.000
80.000	40513888.000
80.500	51006920.000
81.000	66598292.000
81.500	61667288.000
82.000	62569656.000
82.500	63721400.000
83.000	63973592.000
83.500	63540196.000
84.000	62973664.000
84.500	58238832.000
85.000	41428980.000
85.500	32750428.000
86.000	26626048.000
86.500	24011620.000
87.000	24369542.000
87.500	24470640.000
88.000	24657204.000
88.500	24730770.000
89.000	24801934.000
89.500	24953678.000
90.000	24993824.000
90.500	25012320.000
91.000	25046692.000
91.500	25148976.000
92.000	25053046.000
92.500	25117766.000
93.000	25094922.000
93.500	25174608.000
94.000	25102062.000
94.500	25247186.000
95.000	25293622.000
95.500	25275650.000
96.000	25308378.000
96.500	25346478.000
97.000	25379900.000
97.500	25390894.000
98.000	25451832.000
98.500	25480014.000
99.000	25456852.000
99.500	25563490.000
100.000	25595578.000
100.500	25562252.000
101.000	25591276.000
101.500	25656968.000
102.000	25633724.000
102.500	25678812.000
103.000	25622702.000
103.500	25711446.000
104.000	25690604.000
104.500	25690342.000
105.000	25682142.000
105.500	25664944.000
106.000	25719400.000
106.500	25725624.000
107.000	25714794.000
107.500	25716092.000
108.000	25740074.000
108.500	25804962.000
109.000	25794632.000
109.500	25755022.000
110.000	25802648.000
110.500	25852006.000
111.000	25859808.000
111.500	25928994.000
112.000	25878836.000
112.500	25832980.000
113.000	25870226.000
113.500	25834580.000
114.000	25866568.000
114.500	25913550.000
115.000	25844194.000
115.500	26041246.000
116.000	25933170.000
116.500	25921400.000
117.000	25948114.000
117.500	25919044.000
118.000	25852748.000
118.500	25853008.000
119.000	25843646.000
119.500	25852230.000
120.000	25899178.000
120.500	25883516.000
121.000	25809624.000
121.500	25872568.000
122.000	25924812.000
122.500	25886650.000
123.000	25914858.000
123.500	25883008.000
124.000	25928980.000
124.500	25891874.000
125.000	25906510.000
125.500	25951788.000
126.000	25962282.000
126.500	25954662.000
127.000	26030694.000
127.500	25949432.000
128.000	25996706.000
128.500	25992496.000
129.000	26035436.000
129.500	26009078.000
130.000	25991716.000
130.500	26015400.000
131.000	26060282.000
131.500	26032284.000
132.000	25975940.000
132.500	26008818.000
133.000	25974374.000
133.500	26034924.000
134.000	26029900.000
134.500	26071126.000
135.000	26083836.000
135.500	26078792.000
136.000	26066106.000
136.500	26086226.000
137.000	26049448.000
137.500	26089136.000
138.000	26103982.000
138.500	26155300.000
139.000	26144630.000
139.500	26199060.000
140.000	26199618.000
140.500	26161158.000
141.000	26175830.000
141.500	26094450.000
142.000	26181436.000
142.500	26211076.000
143.000	26176878.000
143.500	26220716.000
144.000	26183002.000
144.500	26196370.000
145.000	26184354.000
145.500	26170480.000
146.000	26120702.000
146.500	26202534.000
147.000	26199840.000
147.500	26173676.000
148.000	26180080.000
148.500	26100280.000
149.000	26136940.000
149.500	26151034.000
150.000	26183028.000
150.500	26167014.000
151.000	26191026.000
151.500	26209506.000
152.000	26189980.000
152.500	26249122.000
153.000	26244032.000
153.500	26224198.000
154.000	26174470.000
154.500	26232496.000
155.000	26253176.000
155.500	26276544.000
156.000	26259864.000
156.500	26248592.000
157.000	26237070.000
157.500	26215654.000
158.000	26249122.000
158.500	26218864.000
159.000	26208692.000
159.500	26196652.000
160.000	26138008.000
160.500	26137220.000
161.000	26105336.000
161.500	26189992.000
162.000	26178790.000
162.500	26216218.000
163.000	26208428.000
163.500	26218340.000
164.000	26281916.000
164.500	26284396.000
165.000	26274674.000
165.500	26194820.000
166.000	26249164.000
166.500	26265552.000
167.000	26281950.000
167.500	26277890.000
168.000	26199066.000
168.500	26254248.000
169.000	26191322.000
169.500	26197474.000
170.000	26223678.000
170.500	26259888.000
171.000	26292424.000
171.500	26275190.000
172.000	26247530.000
172.500	26282986.000
173.000	26280856.000
173.500	26264414.000
174.000	26289412.000
174.500	26278396.000
175.000	26245342.000
175.500	26248032.000
176.000	26252354.000
176.500	26292376.000
177.000	26323902.000
177.500	26304778.000
178.000	26321466.000
178.500	26304208.000
179.000	26301284.000
179.500	26325810.000
180.000	26350616.000
180.500	26313918.000
181.000	26291844.000
181.500	26306382.000
182.000	26306638.000
182.500	26261194.000
183.000	26359606.000
183.500	26364726.000
184.000	26403214.000
184.500	26347946.000
185.000	26386658.000
185.500	26387504.000
186.000	26346618.000
186.500	26364188.000
187.000	26386648.000
187.500	26353064.000
188.000	26357694.000
188.500	26344124.000
189.000	26419806.000
189.500	26395634.000
190.000	26405408.000
190.500	26375286.000
191.000	26349862.000
191.500	26357152.000
192.000	26380956.000
192.500	26361256.000
193.000	26302086.000
193.500	26344960.000
194.000	26302914.000
194.500	26366860.000
195.000	26336870.000
195.500	26346346.000
196.000	26340966.000
196.500	26376142.000
197.000	26360994.000
197.500	26377752.000
198.000	26383460.000
198.500	26369366.000
199.000	26412472.000
199.500	26475104.000
200.000	26443218.000
200.500	26430944.000
201.000	26507092.000
201.500	26413600.000
202.000	26425852.000
202.500	26422536.000
203.000	26433946.000
203.500	26409216.000
204.000	26447566.000
204.500	26460668.000
205.000	26493948.000
205.500	26452984.000
206.000	26466616.000
206.500	26434750.000
207.000	26511734.000
207.500	26491196.000
208.000	26510912.000
208.500	26487696.000
209.000	26502460.000
209.500	26504074.000
210.000	26484432.000
210.500	26470494.000
211.000	26489314.000
211.500	26526828.000
212.000	26503812.000
212.500	26508490.000
213.000	26523280.000
213.500	26463944.000
214.000	26468568.000
214.500	26432874.000
215.000	26506232.000
215.500	26496162.000
216.000	26558924.000
216.500	26504876.000
217.000	26526776.000
217.500	26519916.000
218.000	26613150.000
218.500	26565748.000
219.000	26537728.000
219.500	26544328.000
220.000	26574846.000
220.500	26566812.000
221.000	26537726.000
221.500	26504006.000
222.000	26496632.000
222.500	26476128.000
223.000	26553070.000
223.500	26522940.000
224.000	26492270.000
224.500	26533356.000
225.000	26542366.000
225.500	26542640.000
226.000	26518772.000
226.500	26531674.000
227.000	26517698.000
227.500	26522334.000
228.000	26552806.000
228.500	26569040.000
229.000	26575114.000
229.500	26564054.000
230.000	26565202.000
230.500	26583614.000
231.000	26566546.000
231.500	26549770.000
232.000	26537190.000
232.500	26512198.000
233.000	26501520.000
233.500	26525688.000
234.000	26518242.000
234.500	26544858.000
235.000	26558526.000
235.500	26572620.000
236.000	26549506.000
236.500	26495770.000
237.000	26542096.000
237.500	26568434.000
238.000	26549502.000
238.500	26561296.000
239.000	26577740.000
239.500	26570048.000
240.000	26590156.000
240.500	26563784.000
241.000	26505948.000
241.500	26544056.000
242.000	26530876.000
242.500	26513602.000
243.000	26533888.000
243.500	26554410.000
244.000	26576390.000
244.500	26601712.000
245.000	26536932.000
245.500	26551732.000
246.000	26578696.000
246.500	26530952.000
247.000	26520808.000
247.500	26510660.000
248.000	26513950.000
248.500	26549860.000
249.000	26530076.000
249.500	26561910.000
250.000	26510326.000
250.500	26496700.000
251.000	26545138.000
251.500	26566284.000
252.000	26597586.000
252.500	26597122.000
253.000	26549778.000
253.500	26556932.000
254.000	26535516.000
254.500	26579692.000
255.000	26596238.000
255.500	26592116.000
256.000	26567890.000
256.500	26578336.000
257.000	26586846.000
257.500	26616932.000
258.000	26605984.000
258.500	26634874.000
259.000	26591322.000
259.500	26624652.000
260.000	26668934.000
260.500	26712124.000
261.000	26717184.000
261.500	26762334.000
262.000	26658682.000
262.500	26604028.000
263.000	26655630.000
263.500	26693088.000
264.000	26654832.000
264.500	26626080.000
265.000	26688396.000
265.500	26679476.000
266.000	26671998.000
266.500	26649784.000
267.000	26660568.000
267.500	26643676.000
268.000	26619370.000
268.500	26727206.000
269.000	26666068.000
269.500	26677494.000
270.000	26608684.000
270.500	26603478.000
271.000	26611652.000
271.500	26611374.000
272.000	26627692.000
272.500	26630934.000
273.000	26697686.000
273.500	26664976.000
274.000	26587466.000
274.500	26603140.000
275.000	26573164.000
275.500	26660930.000
276.000	26615856.000
276.500	26539684.000
277.000	26615934.000
277.500	26659220.000
278.000	26649330.000
278.500	26659856.000
279.000	26696778.000
279.500	26683170.000
280.000	26694702.000
280.500	26683082.000
281.000	26639356.000
281.500	26658416.000
282.000	26745674.000
282.500	26724134.000
283.000	26642958.000
283.500	26666698.000
284.000	26660304.000
284.500	26703908.000
285.000	26697768.000
285.500	26645734.000
286.000	26656708.000
286.500	26656434.000
287.000	26682446.000
287.500	26740222.000
288.000	26681008.000
288.500	26706250.000
289.000	26666156.000
289.500	26670564.000
290.000	26671650.000
290.500	26682270.000
291.000	26696418.000
291.500	26695244.000
292.000	26718542.000
292.500	26711938.000
293.000	26750290.000
293.500	26803640.000
294.000	26797180.000
294.500	26804720.000
295.000	26775660.000
295.500	26775932.000
296.000	26814290.000
296.500	26756992.000
297.000	26742496.000
297.500	26825466.000
298.000	26833040.000
298.500	26811736.000
299.000	26840052.000
299.500	26909784.000
