t (s)	R (ohm)
0.000	52012572.000
0.500	51031380.000
1.000	49863084.000
1.500	49435584.000
2.000	48603908.000
2.500	48353316.000
3.000	47796536.000
3.500	47615688.000
4.000	47241160.000
4.500	46716452.000
5.000	46250756.000
5.500	46135300.000
6.000	45642640.000
6.500	45490496.000
7.000	45221784.000
7.500	44841324.000
8.000	44580688.000
8.500	44239696.000
9.000	44236104.000
9.500	43869796.000
10.000	43725592.000
10.500	43587992.000
11.000	43549124.000
11.500	43338228.000
12.000	43361884.000
12.500	43029120.000
13.000	43061364.000
13.500	42862952.000
14.000	42723144.000
14.500	42565488.000
15.000	42296200.000
15.500	42300536.000
16.000	42155780.000
16.500	42217496.000
17.000	42055424.000
17.500	42070328.000
18.000	41982708.000
18.500	41989044.000
19.000	41849384.000
19.500	41908964.000
20.000	41656644.000
20.500	41579044.000
21.000	41822800.000
21.500	41589064.000
22.000	41614472.000
22.500	41447872.000
23.000	41404472.000
23.500	41316684.000
24.000	41226320.000
24.500	41243960.000
25.000	41164996.000
25.500	41107980.000
26.000	41171636.000
26.500	41070268.000
27.000	41129684.000
27.500	41043036.000
28.000	40920324.000
28.500	40907560.000
29.000	40889388.000
29.500	40829888.000
